PicSet,AnsSet,ImageSetShow,ImageAnsShow,Correct,trials_3.thisRepN,trials_3.thisTrialN,trials_3.thisN,trials_3.thisIndex,trials_2.thisRepN,trials_2.thisTrialN,trials_2.thisN,trials_2.thisIndex,trials.thisRepN,trials.thisTrialN,trials.thisN,trials.thisIndex,intro.started,intro.stopped,key_resp_2.keys,key_resp_2.rt,key_resp_2.started,key_resp_2.stopped,count3.started,count3.stopped,count2.started,count2.stopped,Count1.started,Count1.stopped,CountGo.started,CountGo.stopped,image_2.started,image_2.stopped,text_3.started,text_3.stopped,key_resp_3.keys,key_resp_3.rt,key_resp_3.started,key_resp_3.stopped,image.started,image.stopped,text_2.started,text_2.stopped,key_resp.keys,key_resp.corr,key_resp.rt,key_resp.started,key_resp.stopped,text_5.started,text_5.stopped,participant,Sex (M,F),Age,date,expName,psychopyVersion,frameRate,
,,,,,,,,,,,,,,,,,47.71078543099975,None,space,11.4084861249994,47.71078543099975,None,,,,,,,,,,,,,,,,,,,,,,,,,,,,emma,F,20,2022_Mar_23_1419,Prototype,2021.2.3,60.01971815796427,
ImageShowSet1.xlsx,ImageAnsSet1.xlsx,Pictures/F1A.jpg,,,0,0,0,0,0,0,0,0,,,,,,,,,,,59.17707117600003,60.19121414500114,60.159282902000996,61.17425749799986,61.159656400999665,62.17464969399953,62.15854939500059,None,63.34995893500127,None,,,,,,,,,,,,,,,,,,emma,F,20,2022_Mar_23_1419,Prototype,2021.2.3,60.01971815796427,
ImageShowSet1.xlsx,ImageAnsSet1.xlsx,Pictures/M3A.jpg,,,0,0,0,0,0,1,1,5,,,,,,,,,,,,,,,,,,,64.28110961899984,None,,,,,,,,,,,,,,,,,,emma,F,20,2022_Mar_23_1419,Prototype,2021.2.3,60.01971815796427,
ImageShowSet1.xlsx,ImageAnsSet1.xlsx,Pictures/M2M.jpg,,,0,0,0,0,0,2,2,3,,,,,,,,,,,,,,,,,,,65.25879319700107,None,,,,,,,,,,,,,,,,,,emma,F,20,2022_Mar_23_1419,Prototype,2021.2.3,60.01971815796427,
ImageShowSet1.xlsx,ImageAnsSet1.xlsx,Pictures/F2M.jpg,,,0,0,0,0,0,3,3,2,,,,,,,,,,,,,,,,,,,66.28298940000059,None,,,,,,,,,,,,,,,,,,emma,F,20,2022_Mar_23_1419,Prototype,2021.2.3,60.01971815796427,
ImageShowSet1.xlsx,ImageAnsSet1.xlsx,Pictures/F3A.jpg,,,0,0,0,0,0,4,4,4,,,,,,,,,,,,,,,,,,,67.29041287499967,None,,,,,,,,,,,,,,,,,,emma,F,20,2022_Mar_23_1419,Prototype,2021.2.3,60.01971815796427,
ImageShowSet1.xlsx,ImageAnsSet1.xlsx,Pictures/M1A.jpg,,,0,0,0,0,0,5,5,1,,,,,,,,,,,,,,,,,,,68.27517604000059,None,,,,,,,,,,,,,,,,,,emma,F,20,2022_Mar_23_1419,Prototype,2021.2.3,60.01971815796427,
ImageShowSet1.xlsx,ImageAnsSet1.xlsx,,Pictures/M1M.jpg,n,0,0,0,0,,,,,0,0,0,7,,,,,,,,,,,,,,,,,69.17714706600054,None,space,1.9490314070008026,69.17714706600054,None,71.29792215099951,None,72.19072568100091,None,o,0,0.6390672420002375,72.19072568100091,None,,,emma,F,20,2022_Mar_23_1419,Prototype,2021.2.3,60.01971815796427,
ImageShowSet1.xlsx,ImageAnsSet1.xlsx,,Pictures/F3A.jpg,o,0,0,0,0,,,,,0,1,1,4,,,,,,,,,,,,,,,,,,,,,,,72.99003749500116,None,73.87453726999956,None,o,1,0.5303086889998667,73.87453726999956,None,,,emma,F,20,2022_Mar_23_1419,Prototype,2021.2.3,60.01971815796427,
ImageShowSet1.xlsx,ImageAnsSet1.xlsx,,Pictures/M1A.jpg,o,0,0,0,0,,,,,0,2,2,1,,,,,,,,,,,,,,,,,,,,,,,74.5415953089996,None,75.4415907069997,None,o,1,0.40906777800046257,75.4415907069997,None,,,emma,F,20,2022_Mar_23_1419,Prototype,2021.2.3,60.01971815796427,
ImageShowSet1.xlsx,ImageAnsSet1.xlsx,,Pictures/M2M.jpg,o,0,0,0,0,,,,,0,3,3,3,,,,,,,,,,,,,,,,,,,,,,,75.98998911600029,None,76.87615316300071,None,o,1,0.40652611199948296,76.87615316300071,None,,,emma,F,20,2022_Mar_23_1419,Prototype,2021.2.3,60.01971815796427,
ImageShowSet1.xlsx,ImageAnsSet1.xlsx,,Pictures/F3M.jpg,n,0,0,0,0,,,,,0,4,4,10,,,,,,,,,,,,,,,,,,,,,,,77.42307308700038,None,78.32444158100043,None,o,0,0.3882679519992962,78.32444158100043,None,,,emma,F,20,2022_Mar_23_1419,Prototype,2021.2.3,60.01971815796427,
ImageShowSet1.xlsx,ImageAnsSet1.xlsx,,Pictures/F1A.jpg,o,0,0,0,0,,,,,0,5,5,0,,,,,,,,,,,,,,,,,,,,,,,78.87447153500034,None,79.75771034300124,None,o,1,0.46090971900048316,79.75771034300124,None,,,emma,F,20,2022_Mar_23_1419,Prototype,2021.2.3,60.01971815796427,
ImageShowSet1.xlsx,ImageAnsSet1.xlsx,,Pictures/F2M.jpg,o,0,0,0,0,,,,,0,6,6,2,,,,,,,,,,,,,,,,,,,,,,,80.36431827600063,None,81.25798800800112,None,o,1,0.4707227580001927,81.25798800800112,None,,,emma,F,20,2022_Mar_23_1419,Prototype,2021.2.3,60.01971815796427,
ImageShowSet1.xlsx,ImageAnsSet1.xlsx,,Pictures/M3M.jpg,n,0,0,0,0,,,,,0,7,7,11,,,,,,,,,,,,,,,,,,,,,,,81.87463003599987,None,82.77442803200029,None,o,0,0.5021035330009909,82.77442803200029,None,,,emma,F,20,2022_Mar_23_1419,Prototype,2021.2.3,60.01971815796427,
ImageShowSet1.xlsx,ImageAnsSet1.xlsx,,Pictures/F1M.jpg,n,0,0,0,0,,,,,0,8,8,6,,,,,,,,,,,,,,,,,,,,,,,83.42553117100033,None,84.324221244,None,o,0,0.3753027349994227,84.324221244,None,,,emma,F,20,2022_Mar_23_1419,Prototype,2021.2.3,60.01971815796427,
ImageShowSet1.xlsx,ImageAnsSet1.xlsx,,Pictures/M2A.jpg,n,0,0,0,0,,,,,0,9,9,9,,,,,,,,,,,,,,,,,,,,,,,84.84726757099997,None,85.74091941799998,None,o,0,0.46460276800098654,85.74091941799998,None,,,emma,F,20,2022_Mar_23_1419,Prototype,2021.2.3,60.01971815796427,
ImageShowSet1.xlsx,ImageAnsSet1.xlsx,,Pictures/F2A.jpg,n,0,0,0,0,,,,,0,10,10,8,,,,,,,,,,,,,,,,,,,,,,,86.3582358349995,None,87.2252251280006,None,o,0,0.6053024970005936,87.2252251280006,None,,,emma,F,20,2022_Mar_23_1419,Prototype,2021.2.3,60.01971815796427,
ImageShowSet1.xlsx,ImageAnsSet1.xlsx,,Pictures/M3A.jpg,o,0,0,0,0,,,,,0,11,11,5,,,,,,,,,,,,,,,,,,,,,,,87.98049272699973,None,88.87434452300113,None,n,0,0.6000383029986551,88.87434452300113,None,,,emma,F,20,2022_Mar_23_1419,Prototype,2021.2.3,60.01971815796427,
ImageShowSet1.xlsx,ImageAnsSet1.xlsx,,,,0,0,0,0,,,,,,,,,,,,,,,,,,,,,,,,,,,,,,,,,,,,,,,,,,emma,F,20,2022_Mar_23_1419,Prototype,2021.2.3,60.01971815796427,
ImageShowSet2.xlsx,ImageAnsSet2.xlsx,Pictures/F10M.jpg,,,0,1,1,1,0,0,0,2,,,,,,,,,,,89.5092467680006,90.52409428200008,90.49112068300019,91.49084573000073,91.49084573000073,92.49079060599979,92.49079060599979,None,93.61563760200079,None,,,,,,,,,,,,,,,,,,emma,F,20,2022_Mar_23_1419,Prototype,2021.2.3,60.01971815796427,
ImageShowSet2.xlsx,ImageAnsSet2.xlsx,Pictures/M9A.jpg,,,0,1,1,1,0,1,1,1,,,,,,,,,,,,,,,,,,,94.64223692300038,None,,,,,,,,,,,,,,,,,,emma,F,20,2022_Mar_23_1419,Prototype,2021.2.3,60.01971815796427,
ImageShowSet2.xlsx,ImageAnsSet2.xlsx,Pictures/F9A.jpg,,,0,1,1,1,0,2,2,0,,,,,,,,,,,,,,,,,,,95.65841790100058,None,,,,,,,,,,,,,,,,,,emma,F,20,2022_Mar_23_1419,Prototype,2021.2.3,60.01971815796427,
ImageShowSet2.xlsx,ImageAnsSet2.xlsx,Pictures/F11A.jpg,,,0,1,1,1,0,3,3,4,,,,,,,,,,,,,,,,,,,96.66183009900124,None,,,,,,,,,,,,,,,,,,emma,F,20,2022_Mar_23_1419,Prototype,2021.2.3,60.01971815796427,
ImageShowSet2.xlsx,ImageAnsSet2.xlsx,Pictures/M11A.jpg,,,0,1,1,1,0,4,4,5,,,,,,,,,,,,,,,,,,,97.65148664899971,None,,,,,,,,,,,,,,,,,,emma,F,20,2022_Mar_23_1419,Prototype,2021.2.3,60.01971815796427,
ImageShowSet2.xlsx,ImageAnsSet2.xlsx,Pictures/M10M.jpg,,,0,1,1,1,0,5,5,3,,,,,,,,,,,,,,,,,,,98.65829810300056,None,,,,,,,,,,,,,,,,,,emma,F,20,2022_Mar_23_1419,Prototype,2021.2.3,60.01971815796427,
ImageShowSet2.xlsx,ImageAnsSet2.xlsx,,Pictures/F9M.jpg,n,0,1,1,1,,,,,0,0,0,6,,,,,,,,,,,,,,,,,99.5260947679999,None,space,1.4883040029999393,99.5260947679999,None,101.17425524200007,None,102.05908060000002,None,o,0,1.092200008999498,102.05908060000002,None,,,emma,F,20,2022_Mar_23_1419,Prototype,2021.2.3,60.01971815796427,
ImageShowSet2.xlsx,ImageAnsSet2.xlsx,,Pictures/F9A.jpg,o,0,1,1,1,,,,,0,1,1,0,,,,,,,,,,,,,,,,,,,,,,,103.31434527199963,None,104.19120090599972,None,o,1,0.11804480899991177,104.19120090599972,None,,,emma,F,20,2022_Mar_23_1419,Prototype,2021.2.3,60.01971815796427,
ImageShowSet2.xlsx,ImageAnsSet2.xlsx,,Pictures/F10M.jpg,o,0,1,1,1,,,,,0,2,2,2,,,,,,,,,,,,,,,,,,,,,,,104.46527992400115,None,105.35860614000012,None,o,1,0.47868525400008366,105.35860614000012,None,,,emma,F,20,2022_Mar_23_1419,Prototype,2021.2.3,60.01971815796427,
ImageShowSet2.xlsx,ImageAnsSet2.xlsx,,Pictures/M10A.jpg,n,0,1,1,1,,,,,0,3,3,9,,,,,,,,,,,,,,,,,,,,,,,105.98733708100008,None,106.87530929900095,None,n,1,0.4509892639998725,106.87530929900095,None,,,emma,F,20,2022_Mar_23_1419,Prototype,2021.2.3,60.01971815796427,
ImageShowSet2.xlsx,ImageAnsSet2.xlsx,,Pictures/F11M.jpg,n,0,1,1,1,,,,,0,4,4,10,,,,,,,,,,,,,,,,,,,,,,,107.4921106490001,None,108.37435553900104,None,n,1,1.3559155629991437,108.37435553900104,None,,,emma,F,20,2022_Mar_23_1419,Prototype,2021.2.3,60.01971815796427,
ImageShowSet2.xlsx,ImageAnsSet2.xlsx,,Pictures/M11M.jpg,n,0,1,1,1,,,,,0,5,5,11,,,,,,,,,,,,,,,,,,,,,,,109.89996776100088,None,110.76088388599965,None,o,0,0.20735380099904432,110.76088388599965,None,,,emma,F,20,2022_Mar_23_1419,Prototype,2021.2.3,60.01971815796427,
ImageShowSet2.xlsx,ImageAnsSet2.xlsx,,Pictures/M10M.jpg,o,0,1,1,1,,,,,0,6,6,3,,,,,,,,,,,,,,,,,,,,,,,111.13681835700118,None,111.99248713500128,None,n,0,1.1245872799991048,111.99248713500128,None,,,emma,F,20,2022_Mar_23_1419,Prototype,2021.2.3,60.01971815796427,
ImageShowSet2.xlsx,ImageAnsSet2.xlsx,,Pictures/M9M.jpg,n,0,1,1,1,,,,,0,7,7,7,,,,,,,,,,,,,,,,,,,,,,,113.28020413299964,None,114.15860866600087,None,o,0,1.7455196840001008,114.15860866600087,None,,,emma,F,20,2022_Mar_23_1419,Prototype,2021.2.3,60.01971815796427,
ImageShowSet2.xlsx,ImageAnsSet2.xlsx,,Pictures/M9A.jpg,o,0,1,1,1,,,,,0,8,8,1,,,,,,,,,,,,,,,,,,,,,,,116.07466840100096,None,116.92713657199965,None,n,0,0.3959749980003835,116.92713657199965,None,,,emma,F,20,2022_Mar_23_1419,Prototype,2021.2.3,60.01971815796427,
ImageShowSet2.xlsx,ImageAnsSet2.xlsx,,Pictures/M11A.jpg,o,0,1,1,1,,,,,0,9,9,5,,,,,,,,,,,,,,,,,,,,,,,117.48333475100117,None,118.34612530699997,None,o,1,0.2860701709996647,118.34612530699997,None,,,emma,F,20,2022_Mar_23_1419,Prototype,2021.2.3,60.01971815796427,
ImageShowSet2.xlsx,ImageAnsSet2.xlsx,,Pictures/F11A.jpg,o,0,1,1,1,,,,,0,10,10,4,,,,,,,,,,,,,,,,,,,,,,,118.81587574399964,None,119.67519267600073,None,o,1,0.4487000879998959,119.67519267600073,None,,,emma,F,20,2022_Mar_23_1419,Prototype,2021.2.3,60.01971815796427,
ImageShowSet2.xlsx,ImageAnsSet2.xlsx,,Pictures/F10A.jpg,n,0,1,1,1,,,,,0,11,11,8,,,,,,,,,,,,,,,,,,,,,,,120.28946289800115,None,121.15951830500126,None,o,0,0.38950935899993056,121.15951830500126,None,,,emma,F,20,2022_Mar_23_1419,Prototype,2021.2.3,60.01971815796427,
ImageShowSet2.xlsx,ImageAnsSet2.xlsx,,,,0,1,1,1,,,,,,,,,,,,,,,,,,,,,,,,,,,,,,,,,,,,,,,,,,emma,F,20,2022_Mar_23_1419,Prototype,2021.2.3,60.01971815796427,
ImageShowSet5.xlsx,ImageAnsSet5.xlsx,Pictures/M7A.jpg,,,0,2,2,4,0,0,0,3,,,,,,,,,,,121.57573980900088,122.57406122500106,122.5583319590005,123.55720550600017,123.55720550600017,124.55733749499996,124.55733749499996,None,125.70077477599989,None,,,,,,,,,,,,,,,,,,emma,F,20,2022_Mar_23_1419,Prototype,2021.2.3,60.01971815796427,
ImageShowSet5.xlsx,ImageAnsSet5.xlsx,Pictures/F6M.jpg,,,0,2,2,4,0,1,1,0,,,,,,,,,,,,,,,,,,,126.7148668030004,None,,,,,,,,,,,,,,,,,,emma,F,20,2022_Mar_23_1419,Prototype,2021.2.3,60.01971815796427,
ImageShowSet5.xlsx,ImageAnsSet5.xlsx,Pictures/M8M.jpg,,,0,2,2,4,0,2,2,5,,,,,,,,,,,,,,,,,,,127.7131080979998,None,,,,,,,,,,,,,,,,,,emma,F,20,2022_Mar_23_1419,Prototype,2021.2.3,60.01971815796427,
ImageShowSet5.xlsx,ImageAnsSet5.xlsx,Pictures/M6M.jpg,,,0,2,2,4,0,3,3,1,,,,,,,,,,,,,,,,,,,128.73186699600046,None,,,,,,,,,,,,,,,,,,emma,F,20,2022_Mar_23_1419,Prototype,2021.2.3,60.01971815796427,
ImageShowSet5.xlsx,ImageAnsSet5.xlsx,Pictures/F7A.jpg,,,0,2,2,4,0,4,4,2,,,,,,,,,,,,,,,,,,,129.74012596800094,None,,,,,,,,,,,,,,,,,,emma,F,20,2022_Mar_23_1419,Prototype,2021.2.3,60.01971815796427,
ImageShowSet5.xlsx,ImageAnsSet5.xlsx,Pictures/F8M.jpg,,,0,2,2,4,0,5,5,4,,,,,,,,,,,,,,,,,,,130.70644414300114,None,,,,,,,,,,,,,,,,,,emma,F,20,2022_Mar_23_1419,Prototype,2021.2.3,60.01971815796427,
ImageShowSet5.xlsx,ImageAnsSet5.xlsx,,Pictures/M7M.jpg,n,0,2,2,4,,,,,0,0,0,9,,,,,,,,,,,,,,,,,131.5931510290011,None,space,1.432752561999223,131.5931510290011,None,133.19773654600067,None,134.0766212260005,None,o,0,0.36126519100071164,134.0766212260005,None,,,emma,F,20,2022_Mar_23_1419,Prototype,2021.2.3,60.01971815796427,
ImageShowSet5.xlsx,ImageAnsSet5.xlsx,,Pictures/M7A.jpg,o,0,2,2,4,,,,,0,1,1,3,,,,,,,,,,,,,,,,,,,,,,,134.6000958200002,None,135.47515018200102,None,o,1,0.3117169390006893,135.47515018200102,None,,,emma,F,20,2022_Mar_23_1419,Prototype,2021.2.3,60.01971815796427,
ImageShowSet5.xlsx,ImageAnsSet5.xlsx,,Pictures/M8A.jpg,n,0,2,2,4,,,,,0,2,2,11,,,,,,,,,,,,,,,,,,,,,,,135.94034025099972,None,136.82477043200015,None,n,1,2.2010275620014,136.82477043200015,None,,,emma,F,20,2022_Mar_23_1419,Prototype,2021.2.3,60.01971815796427,
ImageShowSet5.xlsx,ImageAnsSet5.xlsx,,Pictures/F8M.jpg,o,0,2,2,4,,,,,0,3,3,4,,,,,,,,,,,,,,,,,,,,,,,139.21591517700108,None,140.07164851900052,None,o,1,0.20836083100039104,140.07164851900052,None,,,emma,F,20,2022_Mar_23_1419,Prototype,2021.2.3,60.01971815796427,
ImageShowSet5.xlsx,ImageAnsSet5.xlsx,,Pictures/M6A.jpg,n,0,2,2,4,,,,,0,4,4,7,,,,,,,,,,,,,,,,,,,,,,,140.45802975300103,None,141.30811036900013,None,n,1,1.0296059049996984,141.30811036900013,None,,,emma,F,20,2022_Mar_23_1419,Prototype,2021.2.3,60.01971815796427,
ImageShowSet5.xlsx,ImageAnsSet5.xlsx,,Pictures/F6A.jpg,n,0,2,2,4,,,,,0,5,5,6,,,,,,,,,,,,,,,,,,,,,,,142.50724447700122,None,143.3743944680009,None,o,0,0.21434519499962335,143.3743944680009,None,,,emma,F,20,2022_Mar_23_1419,Prototype,2021.2.3,60.01971815796427,
ImageShowSet5.xlsx,ImageAnsSet5.xlsx,,Pictures/M8M.jpg,o,0,2,2,4,,,,,0,6,6,5,,,,,,,,,,,,,,,,,,,,,,,143.74637035200067,None,144.62451412500013,None,o,1,0.4892625539996516,144.62451412500013,None,,,emma,F,20,2022_Mar_23_1419,Prototype,2021.2.3,60.01971815796427,
ImageShowSet5.xlsx,ImageAnsSet5.xlsx,,Pictures/M6M.jpg,o,0,2,2,4,,,,,0,7,7,1,,,,,,,,,,,,,,,,,,,,,,,145.27924466900004,None,146.1585566499998,None,o,1,0.4101216230010323,146.1585566499998,None,,,emma,F,20,2022_Mar_23_1419,Prototype,2021.2.3,60.01971815796427,
ImageShowSet5.xlsx,ImageAnsSet5.xlsx,,Pictures/F6M.jpg,o,0,2,2,4,,,,,0,8,8,0,,,,,,,,,,,,,,,,,,,,,,,146.74137229900043,None,147.5920196850002,None,n,0,0.45750209700054256,147.5920196850002,None,,,emma,F,20,2022_Mar_23_1419,Prototype,2021.2.3,60.01971815796427,
ImageShowSet5.xlsx,ImageAnsSet5.xlsx,,Pictures/F7A.jpg,o,0,2,2,4,,,,,0,9,9,2,,,,,,,,,,,,,,,,,,,,,,,148.2563407939997,None,149.08005683900046,None,n,0,0.29167622800014215,149.08005683900046,None,,,emma,F,20,2022_Mar_23_1419,Prototype,2021.2.3,60.01971815796427,
ImageShowSet5.xlsx,ImageAnsSet5.xlsx,,Pictures/F7M.jpg,n,0,2,2,4,,,,,0,10,10,8,,,,,,,,,,,,,,,,,,,,,,,149.53807384300126,None,150.393170931,None,n,1,0.10040868900068745,150.393170931,None,,,emma,F,20,2022_Mar_23_1419,Prototype,2021.2.3,60.01971815796427,
ImageShowSet5.xlsx,ImageAnsSet5.xlsx,,Pictures/F8A.jpg,n,0,2,2,4,,,,,0,11,11,10,,,,,,,,,,,,,,,,,,,,,,,150.69450721500107,None,151.54103500699966,None,o,0,0.2754919700000755,151.54103500699966,None,,,emma,F,20,2022_Mar_23_1419,Prototype,2021.2.3,60.01971815796427,
ImageShowSet5.xlsx,ImageAnsSet5.xlsx,,,,0,2,2,4,,,,,,,,,,,,,,,,,,,,,,,,,,,,,,,,,,,,,,,,,,emma,F,20,2022_Mar_23_1419,Prototype,2021.2.3,60.01971815796427,
ImageShowSet4.xlsx,ImageAnsSet4.xlsx,Pictures/F26M.jpg,,,0,3,3,3,0,0,0,2,,,,,,,,,,,151.84108657900106,152.8402324660001,152.8239526590005,153.82353202299964,153.82353202299964,154.82344576300056,154.82344576300056,None,155.97485121499994,None,,,,,,,,,,,,,,,,,,emma,F,20,2022_Mar_23_1419,Prototype,2021.2.3,60.01971815796427,
ImageShowSet4.xlsx,ImageAnsSet4.xlsx,Pictures/M25A.jpg,,,0,3,3,3,0,1,1,1,,,,,,,,,,,,,,,,,,,157.00761405400044,None,,,,,,,,,,,,,,,,,,emma,F,20,2022_Mar_23_1419,Prototype,2021.2.3,60.01971815796427,
ImageShowSet4.xlsx,ImageAnsSet4.xlsx,Pictures/F27A.jpg,,,0,3,3,3,0,2,2,4,,,,,,,,,,,,,,,,,,,158.03735751299973,None,,,,,,,,,,,,,,,,,,emma,F,20,2022_Mar_23_1419,Prototype,2021.2.3,60.01971815796427,
ImageShowSet4.xlsx,ImageAnsSet4.xlsx,Pictures/M26M.jpg,,,0,3,3,3,0,3,3,3,,,,,,,,,,,,,,,,,,,159.00600178400055,None,,,,,,,,,,,,,,,,,,emma,F,20,2022_Mar_23_1419,Prototype,2021.2.3,60.01971815796427,
ImageShowSet4.xlsx,ImageAnsSet4.xlsx,Pictures/M27A.jpg,,,0,3,3,3,0,4,4,5,,,,,,,,,,,,,,,,,,,159.99743436000063,None,,,,,,,,,,,,,,,,,,emma,F,20,2022_Mar_23_1419,Prototype,2021.2.3,60.01971815796427,
ImageShowSet4.xlsx,ImageAnsSet4.xlsx,Pictures/F25A.jpg,,,0,3,3,3,0,5,5,0,,,,,,,,,,,,,,,,,,,161.02230323100048,None,,,,,,,,,,,,,,,,,,emma,F,20,2022_Mar_23_1419,Prototype,2021.2.3,60.01971815796427,
ImageShowSet4.xlsx,ImageAnsSet4.xlsx,,Pictures/F27A.jpg,o,0,3,3,3,,,,,0,0,0,4,,,,,,,,,,,,,,,,,161.8593650849998,None,space,1.1063770549990295,161.8593650849998,None,163.18114913200043,None,163.99326466800085,None,o,1,0.8116012700011197,163.99326466800085,None,,,emma,F,20,2022_Mar_23_1419,Prototype,2021.2.3,60.01971815796427,
ImageShowSet4.xlsx,ImageAnsSet4.xlsx,,Pictures/F26A.jpg,n,0,3,3,3,,,,,0,1,1,8,,,,,,,,,,,,,,,,,,,,,,,165.0060372070002,None,165.82707224600017,None,n,1,0.20868849900034547,165.82707224600017,None,,,emma,F,20,2022_Mar_23_1419,Prototype,2021.2.3,60.01971815796427,
ImageShowSet4.xlsx,ImageAnsSet4.xlsx,,Pictures/F25A.jpg,o,0,3,3,3,,,,,0,2,2,0,,,,,,,,,,,,,,,,,,,,,,,166.2176302250009,None,167.0747430169995,None,o,1,0.2781010500002594,167.0747430169995,None,,,emma,F,20,2022_Mar_23_1419,Prototype,2021.2.3,60.01971815796427,
ImageShowSet4.xlsx,ImageAnsSet4.xlsx,,Pictures/M25A.jpg,o,0,3,3,3,,,,,0,3,3,1,,,,,,,,,,,,,,,,,,,,,,,167.53101443000014,None,168.37683700200068,None,n,0,0.1489121390004584,168.37683700200068,None,,,emma,F,20,2022_Mar_23_1419,Prototype,2021.2.3,60.01971815796427,
ImageShowSet4.xlsx,ImageAnsSet4.xlsx,,Pictures/M25M.jpg,n,0,3,3,3,,,,,0,4,4,7,,,,,,,,,,,,,,,,,,,,,,,168.70594699600042,None,169.5751285639999,None,o,0,1.0826133520004078,169.5751285639999,None,,,emma,F,20,2022_Mar_23_1419,Prototype,2021.2.3,60.01971815796427,
ImageShowSet4.xlsx,ImageAnsSet4.xlsx,,Pictures/M26M.jpg,o,0,3,3,3,,,,,0,5,5,3,,,,,,,,,,,,,,,,,,,,,,,170.84533999700034,None,171.69288376199984,None,o,1,0.8618613180005923,171.69288376199984,None,,,emma,F,20,2022_Mar_23_1419,Prototype,2021.2.3,60.01971815796427,
ImageShowSet4.xlsx,ImageAnsSet4.xlsx,,Pictures/F27M.jpg,n,0,3,3,3,,,,,0,6,6,10,,,,,,,,,,,,,,,,,,,,,,,172.72120170400012,None,173.5765127499999,None,n,1,0.7592022009994253,173.5765127499999,None,,,emma,F,20,2022_Mar_23_1419,Prototype,2021.2.3,60.01971815796427,
ImageShowSet4.xlsx,ImageAnsSet4.xlsx,,Pictures/M27M.jpg,n,0,3,3,3,,,,,0,7,7,11,,,,,,,,,,,,,,,,,,,,,,,174.50561909600037,None,175.36014589099977,None,n,1,0.05749419099993247,175.36014589099977,None,,,emma,F,20,2022_Mar_23_1419,Prototype,2021.2.3,60.01971815796427,
ImageShowSet4.xlsx,ImageAnsSet4.xlsx,,Pictures/M27A.jpg,o,0,3,3,3,,,,,0,8,8,5,,,,,,,,,,,,,,,,,,,,,,,175.58858012200108,None,176.454491288001,None,n,0,0.0870488620003016,176.454491288001,None,,,emma,F,20,2022_Mar_23_1419,Prototype,2021.2.3,60.01971815796427,
ImageShowSet4.xlsx,ImageAnsSet4.xlsx,,Pictures/M26A.jpg,n,0,3,3,3,,,,,0,9,9,9,,,,,,,,,,,,,,,,,,,,,,,176.71663152800102,None,177.576917503,None,n,1,0.1805793370003812,177.576917503,None,,,emma,F,20,2022_Mar_23_1419,Prototype,2021.2.3,60.01971815796427,
ImageShowSet4.xlsx,ImageAnsSet4.xlsx,,Pictures/F25M.jpg,n,0,3,3,3,,,,,0,10,10,6,,,,,,,,,,,,,,,,,,,,,,,177.94675845500024,None,178.79609654399974,None,n,1,0.4614224300003116,178.79609654399974,None,,,emma,F,20,2022_Mar_23_1419,Prototype,2021.2.3,60.01971815796427,
ImageShowSet4.xlsx,ImageAnsSet4.xlsx,,Pictures/F26M.jpg,o,0,3,3,3,,,,,0,11,11,2,,,,,,,,,,,,,,,,,,,,,,,179.4714628519996,None,180.29675903300085,None,n,0,0.46582727799977874,180.29675903300085,None,,,emma,F,20,2022_Mar_23_1419,Prototype,2021.2.3,60.01971815796427,
ImageShowSet4.xlsx,ImageAnsSet4.xlsx,,,,0,3,3,3,,,,,,,,,,,,,,,,,,,,,,,,,,,,,,,,,,,,,,,,,,emma,F,20,2022_Mar_23_1419,Prototype,2021.2.3,60.01971815796427,
ImageShowSet6.xlsx,ImageAnsSet6.xlsx,Pictures/F22M.jpg,,,0,4,4,5,0,0,0,0,,,,,,,,,,,180.79167522399985,181.80683130299985,181.77365683100106,182.773144064,182.773144064,183.7730513380011,183.7730513380011,None,184.93559825100056,None,,,,,,,,,,,,,,,,,,emma,F,20,2022_Mar_23_1419,Prototype,2021.2.3,60.01971815796427,
ImageShowSet6.xlsx,ImageAnsSet6.xlsx,Pictures/F24M.jpg,,,0,4,4,5,0,1,1,4,,,,,,,,,,,,,,,,,,,185.94471210400116,None,,,,,,,,,,,,,,,,,,emma,F,20,2022_Mar_23_1419,Prototype,2021.2.3,60.01971815796427,
ImageShowSet6.xlsx,ImageAnsSet6.xlsx,Pictures/M22M.jpg,,,0,4,4,5,0,2,2,1,,,,,,,,,,,,,,,,,,,186.93997007399958,None,,,,,,,,,,,,,,,,,,emma,F,20,2022_Mar_23_1419,Prototype,2021.2.3,60.01971815796427,
ImageShowSet6.xlsx,ImageAnsSet6.xlsx,Pictures/M24M.jpg,,,0,4,4,5,0,3,3,5,,,,,,,,,,,,,,,,,,,187.93088181200073,None,,,,,,,,,,,,,,,,,,emma,F,20,2022_Mar_23_1419,Prototype,2021.2.3,60.01971815796427,
ImageShowSet6.xlsx,ImageAnsSet6.xlsx,Pictures/F23A.jpg,,,0,4,4,5,0,4,4,2,,,,,,,,,,,,,,,,,,,188.97117072400033,None,,,,,,,,,,,,,,,,,,emma,F,20,2022_Mar_23_1419,Prototype,2021.2.3,60.01971815796427,
ImageShowSet6.xlsx,ImageAnsSet6.xlsx,Pictures/M23A.jpg,,,0,4,4,5,0,5,5,3,,,,,,,,,,,,,,,,,,,189.94011940000019,None,,,,,,,,,,,,,,,,,,emma,F,20,2022_Mar_23_1419,Prototype,2021.2.3,60.01971815796427,
ImageShowSet6.xlsx,ImageAnsSet6.xlsx,,Pictures/F24A.jpg,n,0,4,4,5,,,,,0,0,0,10,,,,,,,,,,,,,,,,,190.79337085100087,None,space,1.2329732260004675,190.79337085100087,None,192.25307488700128,None,193.07615798299958,None,n,1,0.6913826629988762,193.07615798299958,None,,,emma,F,20,2022_Mar_23_1419,Prototype,2021.2.3,60.01971815796427,
ImageShowSet6.xlsx,ImageAnsSet6.xlsx,,Pictures/M23M.jpg,n,0,4,4,5,,,,,0,1,1,9,,,,,,,,,,,,,,,,,,,,,,,193.9396049320003,None,194.79214079099984,None,o,0,2.1142042389983544,194.79214079099984,None,,,emma,F,20,2022_Mar_23_1419,Prototype,2021.2.3,60.01971815796427,
ImageShowSet6.xlsx,ImageAnsSet6.xlsx,,Pictures/M24M.jpg,o,0,4,4,5,,,,,0,2,2,5,,,,,,,,,,,,,,,,,,,,,,,197.08043162000104,None,197.95729285800007,None,o,1,0.1791235790005885,197.95729285800007,None,,,emma,F,20,2022_Mar_23_1419,Prototype,2021.2.3,60.01971815796427,
ImageShowSet6.xlsx,ImageAnsSet6.xlsx,,Pictures/F22A.jpg,n,0,4,4,5,,,,,0,3,3,6,,,,,,,,,,,,,,,,,,,,,,,198.32201057299972,None,199.16095767000115,None,n,1,0.6364299710003252,199.16095767000115,None,,,emma,F,20,2022_Mar_23_1419,Prototype,2021.2.3,60.01971815796427,
ImageShowSet6.xlsx,ImageAnsSet6.xlsx,,Pictures/F22M.jpg,o,0,4,4,5,,,,,0,4,4,0,,,,,,,,,,,,,,,,,,,,,,,199.97199941899999,None,200.82777084400004,None,o,1,0.061500706999140675,200.82777084400004,None,,,emma,F,20,2022_Mar_23_1419,Prototype,2021.2.3,60.01971815796427,
ImageShowSet6.xlsx,ImageAnsSet6.xlsx,,Pictures/M24A.jpg,n,0,4,4,5,,,,,0,5,5,11,,,,,,,,,,,,,,,,,,,,,,,201.0635443430001,None,201.909886722,None,n,1,1.6293863840000995,201.909886722,None,,,emma,F,20,2022_Mar_23_1419,Prototype,2021.2.3,60.01971815796427,
ImageShowSet6.xlsx,ImageAnsSet6.xlsx,,Pictures/F23M.jpg,n,0,4,4,5,,,,,0,6,6,8,,,,,,,,,,,,,,,,,,,,,,,203.699301138,None,204.57084275600027,None,o,0,0.5523011039986159,204.57084275600027,None,,,emma,F,20,2022_Mar_23_1419,Prototype,2021.2.3,60.01971815796427,
ImageShowSet6.xlsx,ImageAnsSet6.xlsx,,Pictures/M23A.jpg,o,0,4,4,5,,,,,0,7,7,3,,,,,,,,,,,,,,,,,,,,,,,205.3082990790008,None,206.15916560000005,None,o,1,0.645005708998724,206.15916560000005,None,,,emma,F,20,2022_Mar_23_1419,Prototype,2021.2.3,60.01971815796427,
ImageShowSet6.xlsx,ImageAnsSet6.xlsx,,Pictures/M22A.jpg,n,0,4,4,5,,,,,0,8,8,7,,,,,,,,,,,,,,,,,,,,,,,206.9743428870006,None,207.82555399600096,None,n,1,0.06174765800096793,207.82555399600096,None,,,emma,F,20,2022_Mar_23_1419,Prototype,2021.2.3,60.01971815796427,
ImageShowSet6.xlsx,ImageAnsSet6.xlsx,,Pictures/M22M.jpg,o,0,4,4,5,,,,,0,9,9,1,,,,,,,,,,,,,,,,,,,,,,,208.07105230100024,None,208.92444199800047,None,o,1,0.12781524599995464,208.92444199800047,None,,,emma,F,20,2022_Mar_23_1419,Prototype,2021.2.3,60.01971815796427,
ImageShowSet6.xlsx,ImageAnsSet6.xlsx,,Pictures/F23A.jpg,o,0,4,4,5,,,,,0,10,10,2,,,,,,,,,,,,,,,,,,,,,,,209.24587008100025,None,210.07524288400055,None,n,0,0.03311182800098322,210.07524288400055,None,,,emma,F,20,2022_Mar_23_1419,Prototype,2021.2.3,60.01971815796427,
ImageShowSet6.xlsx,ImageAnsSet6.xlsx,,Pictures/F24M.jpg,o,0,4,4,5,,,,,0,11,11,4,,,,,,,,,,,,,,,,,,,,,,,210.2865037219999,None,211.14145448800082,None,o,1,1.3378546580006514,211.14145448800082,None,,,emma,F,20,2022_Mar_23_1419,Prototype,2021.2.3,60.01971815796427,
ImageShowSet6.xlsx,ImageAnsSet6.xlsx,,,,0,4,4,5,,,,,,,,,,,,,,,,,,,,,,,,,,,,,,,,,,,,,,,,,,emma,F,20,2022_Mar_23_1419,Prototype,2021.2.3,60.01971815796427,
ImageShowSet3.xlsx,ImageAnsSet3.xlsx,Pictures/F17A.jpg,,,0,5,5,2,0,0,0,0,,,,,,,,,,,212.50905666400104,213.52306364800097,213.4905519189997,214.49409301000014,214.49409301000014,215.50647100900096,215.4901131300012,None,216.68511337400014,None,,,,,,,,,,,,,,,,,,emma,F,20,2022_Mar_23_1419,Prototype,2021.2.3,60.01971815796427,
ImageShowSet3.xlsx,ImageAnsSet3.xlsx,Pictures/M18M.jpg,,,0,5,5,2,0,1,1,3,,,,,,,,,,,,,,,,,,,217.66918570900089,None,,,,,,,,,,,,,,,,,,emma,F,20,2022_Mar_23_1419,Prototype,2021.2.3,60.01971815796427,
ImageShowSet3.xlsx,ImageAnsSet3.xlsx,Pictures/F19A.jpg,,,0,5,5,2,0,2,2,4,,,,,,,,,,,,,,,,,,,218.70306360200084,None,,,,,,,,,,,,,,,,,,emma,F,20,2022_Mar_23_1419,Prototype,2021.2.3,60.01971815796427,
ImageShowSet3.xlsx,ImageAnsSet3.xlsx,Pictures/F18M.jpg,,,0,5,5,2,0,3,3,2,,,,,,,,,,,,,,,,,,,219.69053170799998,None,,,,,,,,,,,,,,,,,,emma,F,20,2022_Mar_23_1419,Prototype,2021.2.3,60.01971815796427,
ImageShowSet3.xlsx,ImageAnsSet3.xlsx,Pictures/M17A.jpg,,,0,5,5,2,0,4,4,1,,,,,,,,,,,,,,,,,,,220.66278112700093,None,,,,,,,,,,,,,,,,,,emma,F,20,2022_Mar_23_1419,Prototype,2021.2.3,60.01971815796427,
ImageShowSet3.xlsx,ImageAnsSet3.xlsx,Pictures/M19A.jpg,,,0,5,5,2,0,5,5,5,,,,,,,,,,,,,,,,,,,221.6617292760002,None,,,,,,,,,,,,,,,,,,emma,F,20,2022_Mar_23_1419,Prototype,2021.2.3,60.01971815796427,
ImageShowSet3.xlsx,ImageAnsSet3.xlsx,,Pictures/M18A.jpg,n,0,5,5,2,,,,,0,0,0,9,,,,,,,,,,,,,,,,,222.52491576899956,None,space,1.0357524970004306,222.52491576899956,None,223.75727564299996,None,224.59303987699968,None,o,0,0.3222609820004436,224.59303987699968,None,,,emma,F,20,2022_Mar_23_1419,Prototype,2021.2.3,60.01971815796427,
ImageShowSet3.xlsx,ImageAnsSet3.xlsx,,Pictures/M17M.jpg,n,0,5,5,2,,,,,0,1,1,7,,,,,,,,,,,,,,,,,,,,,,,225.0899473620011,None,225.95773425300104,None,o,0,0.18958232899967697,225.95773425300104,None,,,emma,F,20,2022_Mar_23_1419,Prototype,2021.2.3,60.01971815796427,
ImageShowSet3.xlsx,ImageAnsSet3.xlsx,,Pictures/F19M.jpg,n,0,5,5,2,,,,,0,2,2,10,,,,,,,,,,,,,,,,,,,,,,,226.34005290000096,None,227.19150930900105,None,n,1,0.08675761299855367,227.19150930900105,None,,,emma,F,20,2022_Mar_23_1419,Prototype,2021.2.3,60.01971815796427,
ImageShowSet3.xlsx,ImageAnsSet3.xlsx,,Pictures/F19A.jpg,o,0,5,5,2,,,,,0,3,3,4,,,,,,,,,,,,,,,,,,,,,,,227.5023906710012,None,228.3080901960002,None,o,1,0.38919185800114064,228.3080901960002,None,,,emma,F,20,2022_Mar_23_1419,Prototype,2021.2.3,60.01971815796427,
ImageShowSet3.xlsx,ImageAnsSet3.xlsx,,Pictures/F18A.jpg,n,0,5,5,2,,,,,0,4,4,8,,,,,,,,,,,,,,,,,,,,,,,228.91927270000087,None,229.73946323000018,None,n,1,0.02275384899985511,229.73946323000018,None,,,emma,F,20,2022_Mar_23_1419,Prototype,2021.2.3,60.01971815796427,
ImageShowSet3.xlsx,ImageAnsSet3.xlsx,,Pictures/M18M.jpg,o,0,5,5,2,,,,,0,5,5,3,,,,,,,,,,,,,,,,,,,,,,,229.9455274280008,None,230.79106168200087,None,o,1,0.06604515500112029,230.79106168200087,None,,,emma,F,20,2022_Mar_23_1419,Prototype,2021.2.3,60.01971815796427,
ImageShowSet3.xlsx,ImageAnsSet3.xlsx,,Pictures/F17A.jpg,o,0,5,5,2,,,,,0,6,6,0,,,,,,,,,,,,,,,,,,,,,,,231.07142128099986,None,231.89444435199948,None,n,0,0.7645610290001059,231.89444435199948,None,,,emma,F,20,2022_Mar_23_1419,Prototype,2021.2.3,60.01971815796427,
ImageShowSet3.xlsx,ImageAnsSet3.xlsx,,Pictures/M19A.jpg,o,0,5,5,2,,,,,0,7,7,5,,,,,,,,,,,,,,,,,,,,,,,232.85652562700125,None,233.69205144100124,None,n,0,0.15904622000016388,233.69205144100124,None,,,emma,F,20,2022_Mar_23_1419,Prototype,2021.2.3,60.01971815796427,
ImageShowSet3.xlsx,ImageAnsSet3.xlsx,,Pictures/M19M.jpg,n,0,5,5,2,,,,,0,8,8,11,,,,,,,,,,,,,,,,,,,,,,,234.0279602190003,None,234.87627668300047,None,o,0,0.3478183799998078,234.87627668300047,None,,,emma,F,20,2022_Mar_23_1419,Prototype,2021.2.3,60.01971815796427,
ImageShowSet3.xlsx,ImageAnsSet3.xlsx,,Pictures/F17M.jpg,n,0,5,5,2,,,,,0,9,9,6,,,,,,,,,,,,,,,,,,,,,,,235.41127652900104,None,236.259165544001,None,n,1,0.08187891400120861,236.259165544001,None,,,emma,F,20,2022_Mar_23_1419,Prototype,2021.2.3,60.01971815796427,
ImageShowSet3.xlsx,ImageAnsSet3.xlsx,,Pictures/F18M.jpg,o,0,5,5,2,,,,,0,10,10,2,,,,,,,,,,,,,,,,,,,,,,,236.54604793100043,None,237.37621025800036,None,n,0,0.47094595600174216,237.37621025800036,None,,,emma,F,20,2022_Mar_23_1419,Prototype,2021.2.3,60.01971815796427,
ImageShowSet3.xlsx,ImageAnsSet3.xlsx,,Pictures/M17A.jpg,o,0,5,5,2,,,,,0,11,11,1,,,,,,,,,,,,,,,,,,,,,,,238.02450340399992,None,238.87915041900123,None,n,0,0.4528194310005347,238.87915041900123,None,,,emma,F,20,2022_Mar_23_1419,Prototype,2021.2.3,60.01971815796427,
ImageShowSet3.xlsx,ImageAnsSet3.xlsx,,,,0,5,5,2,,,,,,,,,,,,,,,,,,,,,,,,,,,,,,,,,,,,,,,,,,emma,F,20,2022_Mar_23_1419,Prototype,2021.2.3,60.01971815796427,
,,,,,,,,,,,,,,,,,,,,,,,,,,,,,,,,,,,,,,,,,,,,,,,,239.35801356100092,None,,,,,,,,
