PicSet,AnsSet,ImageSetShow,ImageAnsShow,Correct,trials_3.thisRepN,trials_3.thisTrialN,trials_3.thisN,trials_3.thisIndex,trials_2.thisRepN,trials_2.thisTrialN,trials_2.thisN,trials_2.thisIndex,trials.thisRepN,trials.thisTrialN,trials.thisN,trials.thisIndex,intro.started,intro.stopped,key_resp_2.keys,key_resp_2.rt,key_resp_2.started,key_resp_2.stopped,count3.started,count3.stopped,count2.started,count2.stopped,Count1.started,Count1.stopped,CountGo.started,CountGo.stopped,image_2.started,image_2.stopped,text_3.started,text_3.stopped,key_resp_3.keys,key_resp_3.rt,key_resp_3.started,key_resp_3.stopped,image.started,image.stopped,text_2.started,text_2.stopped,key_resp.keys,key_resp.corr,key_resp.rt,key_resp.started,key_resp.stopped,text_5.started,text_5.stopped,participant,Sex (M,F),Age,date,expName,psychopyVersion,frameRate,
,,,,,,,,,,,,,,,,,17.172512074000224,None,space,14.609375270999408,17.172512074000224,None,,,,,,,,,,,,,,,,,,,,,,,,,,,,Nat,F,20,2022_Mar_25_1319,Prototype,2021.2.3,59.985388519032426,
ImageShowSet5.xlsx,ImageAnsSet5.xlsx,Pictures/M8M.jpg,,,0,0,0,4,0,0,0,5,,,,,,,,,,,31.839601871000013,32.83901632299967,32.823099170000205,33.839142398999684,33.82307295700048,34.8390407550005,34.823006243000236,None,35.995035447999726,None,,,,,,,,,,,,,,,,,,Nat,F,20,2022_Mar_25_1319,Prototype,2021.2.3,59.985388519032426,
ImageShowSet5.xlsx,ImageAnsSet5.xlsx,Pictures/M7A.jpg,,,0,0,0,4,0,1,1,3,,,,,,,,,,,,,,,,,,,37.444107915999666,None,,,,,,,,,,,,,,,,,,Nat,F,20,2022_Mar_25_1319,Prototype,2021.2.3,59.985388519032426,
ImageShowSet5.xlsx,ImageAnsSet5.xlsx,Pictures/F8M.jpg,,,0,0,0,4,0,2,2,4,,,,,,,,,,,,,,,,,,,38.94342502899963,None,,,,,,,,,,,,,,,,,,Nat,F,20,2022_Mar_25_1319,Prototype,2021.2.3,59.985388519032426,
ImageShowSet5.xlsx,ImageAnsSet5.xlsx,Pictures/F6M.jpg,,,0,0,0,4,0,3,3,0,,,,,,,,,,,,,,,,,,,40.44003984200026,None,,,,,,,,,,,,,,,,,,Nat,F,20,2022_Mar_25_1319,Prototype,2021.2.3,59.985388519032426,
ImageShowSet5.xlsx,ImageAnsSet5.xlsx,Pictures/M6M.jpg,,,0,0,0,4,0,4,4,1,,,,,,,,,,,,,,,,,,,41.9403028859997,None,,,,,,,,,,,,,,,,,,Nat,F,20,2022_Mar_25_1319,Prototype,2021.2.3,59.985388519032426,
ImageShowSet5.xlsx,ImageAnsSet5.xlsx,Pictures/F7A.jpg,,,0,0,0,4,0,5,5,2,,,,,,,,,,,,,,,,,,,43.454825767999864,None,,,,,,,,,,,,,,,,,,Nat,F,20,2022_Mar_25_1319,Prototype,2021.2.3,59.985388519032426,
ImageShowSet5.xlsx,ImageAnsSet5.xlsx,,Pictures/F7M.jpg,n,0,0,0,4,,,,,0,0,0,8,,,,,,,,,,,,,,,,,44.8410000720005,None,space,3.5350739710002017,44.8410000720005,None,48.54796192499998,None,49.939599012000144,None,n,1,1.699038777000169,49.939599012000144,None,,,Nat,F,20,2022_Mar_25_1319,Prototype,2021.2.3,59.985388519032426,
ImageShowSet5.xlsx,ImageAnsSet5.xlsx,,Pictures/M6M.jpg,o,0,0,0,4,,,,,0,1,1,1,,,,,,,,,,,,,,,,,,,,,,,51.77643898400038,None,53.17235311700006,None,o,1,0.5564175259996773,53.17235311700006,None,,,Nat,F,20,2022_Mar_25_1319,Prototype,2021.2.3,59.985388519032426,
ImageShowSet5.xlsx,ImageAnsSet5.xlsx,,Pictures/M8A.jpg,n,0,0,0,4,,,,,0,2,2,11,,,,,,,,,,,,,,,,,,,,,,,53.87275260200022,None,55.27220109100017,None,n,1,1.115513507000287,55.27220109100017,None,,,Nat,F,20,2022_Mar_25_1319,Prototype,2021.2.3,59.985388519032426,
ImageShowSet5.xlsx,ImageAnsSet5.xlsx,,Pictures/F8M.jpg,o,0,0,0,4,,,,,0,3,3,4,,,,,,,,,,,,,,,,,,,,,,,56.52484168299998,None,57.92215831999965,None,o,1,0.38449848199979897,57.92215831999965,None,,,Nat,F,20,2022_Mar_25_1319,Prototype,2021.2.3,59.985388519032426,
ImageShowSet5.xlsx,ImageAnsSet5.xlsx,,Pictures/M8M.jpg,o,0,0,0,4,,,,,0,4,4,5,,,,,,,,,,,,,,,,,,,,,,,58.4540895250002,None,59.85539575799976,None,o,1,0.5591639100002794,59.85539575799976,None,,,Nat,F,20,2022_Mar_25_1319,Prototype,2021.2.3,59.985388519032426,
ImageShowSet5.xlsx,ImageAnsSet5.xlsx,,Pictures/M7M.jpg,n,0,0,0,4,,,,,0,5,5,9,,,,,,,,,,,,,,,,,,,,,,,60.55236817399964,None,61.95547130599971,None,n,1,0.6951948530004302,61.95547130599971,None,,,Nat,F,20,2022_Mar_25_1319,Prototype,2021.2.3,59.985388519032426,
ImageShowSet5.xlsx,ImageAnsSet5.xlsx,,Pictures/M7A.jpg,o,0,0,0,4,,,,,0,6,6,3,,,,,,,,,,,,,,,,,,,,,,,62.78499017099966,None,64.18876810300026,None,o,1,0.5016807789997983,64.18876810300026,None,,,Nat,F,20,2022_Mar_25_1319,Prototype,2021.2.3,59.985388519032426,
ImageShowSet5.xlsx,ImageAnsSet5.xlsx,,Pictures/F8A.jpg,n,0,0,0,4,,,,,0,7,7,10,,,,,,,,,,,,,,,,,,,,,,,64.85475047,None,66.23867826199967,None,n,1,0.5128419729999223,66.23867826199967,None,,,Nat,F,20,2022_Mar_25_1319,Prototype,2021.2.3,59.985388519032426,
ImageShowSet5.xlsx,ImageAnsSet5.xlsx,,Pictures/M6A.jpg,n,0,0,0,4,,,,,0,8,8,7,,,,,,,,,,,,,,,,,,,,,,,66.89716671299993,None,68.28849874400021,None,n,1,0.7399927010001193,68.28849874400021,None,,,Nat,F,20,2022_Mar_25_1319,Prototype,2021.2.3,59.985388519032426,
ImageShowSet5.xlsx,ImageAnsSet5.xlsx,,Pictures/F6A.jpg,n,0,0,0,4,,,,,0,9,9,6,,,,,,,,,,,,,,,,,,,,,,,69.18016845900001,None,70.57202067100025,None,n,1,1.0813591520000045,70.57202067100025,None,,,Nat,F,20,2022_Mar_25_1319,Prototype,2021.2.3,59.985388519032426,
ImageShowSet5.xlsx,ImageAnsSet5.xlsx,,Pictures/F7A.jpg,o,0,0,0,4,,,,,0,10,10,2,,,,,,,,,,,,,,,,,,,,,,,71.82182603599995,None,73.18863234000037,None,o,1,0.4377142809998986,73.18863234000037,None,,,Nat,F,20,2022_Mar_25_1319,Prototype,2021.2.3,59.985388519032426,
ImageShowSet5.xlsx,ImageAnsSet5.xlsx,,Pictures/F6M.jpg,o,0,0,0,4,,,,,0,11,11,0,,,,,,,,,,,,,,,,,,,,,,,73.7722795740001,None,75.17190920800022,None,o,1,0.652363809000235,75.17190920800022,None,,,Nat,F,20,2022_Mar_25_1319,Prototype,2021.2.3,59.985388519032426,
ImageShowSet5.xlsx,ImageAnsSet5.xlsx,,,,0,0,0,4,,,,,,,,,,,,,,,,,,,,,,,,,,,,,,,,,,,,,,,,,,Nat,F,20,2022_Mar_25_1319,Prototype,2021.2.3,59.985388519032426,
ImageShowSet1.xlsx,ImageAnsSet1.xlsx,Pictures/F2M.jpg,,,0,1,1,0,0,0,0,2,,,,,,,,,,,75.85575739700016,76.87175804100025,76.83871087900025,77.85500732899982,77.83877470399966,78.85499471100047,78.83886414300014,None,79.98330072200042,None,,,,,,,,,,,,,,,,,,Nat,F,20,2022_Mar_25_1319,Prototype,2021.2.3,59.985388519032426,
ImageShowSet1.xlsx,ImageAnsSet1.xlsx,Pictures/F1A.jpg,,,0,1,1,0,0,1,1,0,,,,,,,,,,,,,,,,,,,81.51205638300053,None,,,,,,,,,,,,,,,,,,Nat,F,20,2022_Mar_25_1319,Prototype,2021.2.3,59.985388519032426,
ImageShowSet1.xlsx,ImageAnsSet1.xlsx,Pictures/M3A.jpg,,,0,1,1,0,0,2,2,5,,,,,,,,,,,,,,,,,,,82.99426620099985,None,,,,,,,,,,,,,,,,,,Nat,F,20,2022_Mar_25_1319,Prototype,2021.2.3,59.985388519032426,
ImageShowSet1.xlsx,ImageAnsSet1.xlsx,Pictures/F3A.jpg,,,0,1,1,0,0,3,3,4,,,,,,,,,,,,,,,,,,,84.50791568299974,None,,,,,,,,,,,,,,,,,,Nat,F,20,2022_Mar_25_1319,Prototype,2021.2.3,59.985388519032426,
ImageShowSet1.xlsx,ImageAnsSet1.xlsx,Pictures/M2M.jpg,,,0,1,1,0,0,4,4,3,,,,,,,,,,,,,,,,,,,85.98986359399987,None,,,,,,,,,,,,,,,,,,Nat,F,20,2022_Mar_25_1319,Prototype,2021.2.3,59.985388519032426,
ImageShowSet1.xlsx,ImageAnsSet1.xlsx,Pictures/M1A.jpg,,,0,1,1,0,0,5,5,1,,,,,,,,,,,,,,,,,,,87.48790730699966,None,,,,,,,,,,,,,,,,,,Nat,F,20,2022_Mar_25_1319,Prototype,2021.2.3,59.985388519032426,
ImageShowSet1.xlsx,ImageAnsSet1.xlsx,,Pictures/M1M.jpg,n,0,1,1,0,,,,,0,0,0,7,,,,,,,,,,,,,,,,,88.87226063300022,None,space,1.2010695859999032,88.87226063300022,None,90.23953771299966,None,91.62338789000023,None,o,0,3.137653319000492,91.62338789000023,None,,,Nat,F,20,2022_Mar_25_1319,Prototype,2021.2.3,59.985388519032426,
ImageShowSet1.xlsx,ImageAnsSet1.xlsx,,Pictures/M1A.jpg,o,0,1,1,0,,,,,0,1,1,1,,,,,,,,,,,,,,,,,,,,,,,94.90359425000042,None,96.28929157699986,None,o,1,2.5556935429995065,96.28929157699986,None,,,Nat,F,20,2022_Mar_25_1319,Prototype,2021.2.3,59.985388519032426,
ImageShowSet1.xlsx,ImageAnsSet1.xlsx,,Pictures/M3A.jpg,o,0,1,1,0,,,,,0,2,2,5,,,,,,,,,,,,,,,,,,,,,,,99.00745864600049,None,100.38895740099997,None,o,1,0.8539985759998672,100.38895740099997,None,,,Nat,F,20,2022_Mar_25_1319,Prototype,2021.2.3,59.985388519032426,
ImageShowSet1.xlsx,ImageAnsSet1.xlsx,,Pictures/M3M.jpg,n,0,1,1,0,,,,,0,3,3,11,,,,,,,,,,,,,,,,,,,,,,,101.39340168099989,None,102.78857868100022,None,n,1,0.4204646949992821,102.78857868100022,None,,,Nat,F,20,2022_Mar_25_1319,Prototype,2021.2.3,59.985388519032426,
ImageShowSet1.xlsx,ImageAnsSet1.xlsx,,Pictures/F1M.jpg,n,0,1,1,0,,,,,0,4,4,6,,,,,,,,,,,,,,,,,,,,,,,103.37671643300018,None,104.75518338999973,None,n,1,2.050591109000379,104.75518338999973,None,,,Nat,F,20,2022_Mar_25_1319,Prototype,2021.2.3,59.985388519032426,
ImageShowSet1.xlsx,ImageAnsSet1.xlsx,,Pictures/F1A.jpg,o,0,1,1,0,,,,,0,5,5,0,,,,,,,,,,,,,,,,,,,,,,,106.9961019729999,None,108.35468823799965,None,o,1,0.4190788159994554,108.35468823799965,None,,,Nat,F,20,2022_Mar_25_1319,Prototype,2021.2.3,59.985388519032426,
ImageShowSet1.xlsx,ImageAnsSet1.xlsx,,Pictures/M2M.jpg,o,0,1,1,0,,,,,0,6,6,3,,,,,,,,,,,,,,,,,,,,,,,108.93078485899969,None,110.30609395600004,None,o,1,0.4316355479995764,110.30609395600004,None,,,Nat,F,20,2022_Mar_25_1319,Prototype,2021.2.3,59.985388519032426,
ImageShowSet1.xlsx,ImageAnsSet1.xlsx,,Pictures/F3A.jpg,o,0,1,1,0,,,,,0,7,7,4,,,,,,,,,,,,,,,,,,,,,,,110.90223269299986,None,112.27166850100002,None,n,0,1.1720765489999394,112.27166850100002,None,,,Nat,F,20,2022_Mar_25_1319,Prototype,2021.2.3,59.985388519032426,
ImageShowSet1.xlsx,ImageAnsSet1.xlsx,,Pictures/F2A.jpg,n,0,1,1,0,,,,,0,8,8,8,,,,,,,,,,,,,,,,,,,,,,,113.63397928900031,None,114.98799118999978,None,o,0,0.4856102710000414,114.98799118999978,None,,,Nat,F,20,2022_Mar_25_1319,Prototype,2021.2.3,59.985388519032426,
ImageShowSet1.xlsx,ImageAnsSet1.xlsx,,Pictures/F3M.jpg,n,0,1,1,0,,,,,0,9,9,10,,,,,,,,,,,,,,,,,,,,,,,115.6238633490002,None,117.02124087900029,None,o,0,0.2683783089996723,117.02124087900029,None,,,Nat,F,20,2022_Mar_25_1319,Prototype,2021.2.3,59.985388519032426,
ImageShowSet1.xlsx,ImageAnsSet1.xlsx,,Pictures/M2A.jpg,n,0,1,1,0,,,,,0,10,10,9,,,,,,,,,,,,,,,,,,,,,,,117.45926521100046,None,118.83922747399993,None,n,1,0.4423039899993455,118.83922747399993,None,,,Nat,F,20,2022_Mar_25_1319,Prototype,2021.2.3,59.985388519032426,
ImageShowSet1.xlsx,ImageAnsSet1.xlsx,,Pictures/F2M.jpg,o,0,1,1,0,,,,,0,11,11,2,,,,,,,,,,,,,,,,,,,,,,,119.43786664700019,None,120.82227300399973,None,o,1,0.29922625000017433,120.82227300399973,None,,,Nat,F,20,2022_Mar_25_1319,Prototype,2021.2.3,59.985388519032426,
ImageShowSet1.xlsx,ImageAnsSet1.xlsx,,,,0,1,1,0,,,,,,,,,,,,,,,,,,,,,,,,,,,,,,,,,,,,,,,,,,Nat,F,20,2022_Mar_25_1319,Prototype,2021.2.3,59.985388519032426,
ImageShowSet2.xlsx,ImageAnsSet2.xlsx,Pictures/M10M.jpg,,,0,2,2,1,0,0,0,3,,,,,,,,,,,121.15752943400003,122.1712361330001,122.13825560199984,123.15446517700002,123.13792789800027,124.15441636700052,124.1382312400001,None,125.29437443000006,None,,,,,,,,,,,,,,,,,,Nat,F,20,2022_Mar_25_1319,Prototype,2021.2.3,59.985388519032426,
ImageShowSet2.xlsx,ImageAnsSet2.xlsx,Pictures/M11A.jpg,,,0,2,2,1,0,1,1,5,,,,,,,,,,,,,,,,,,,126.7967818369998,None,,,,,,,,,,,,,,,,,,Nat,F,20,2022_Mar_25_1319,Prototype,2021.2.3,59.985388519032426,
ImageShowSet2.xlsx,ImageAnsSet2.xlsx,Pictures/M9A.jpg,,,0,2,2,1,0,2,2,1,,,,,,,,,,,,,,,,,,,128.31595959700007,None,,,,,,,,,,,,,,,,,,Nat,F,20,2022_Mar_25_1319,Prototype,2021.2.3,59.985388519032426,
ImageShowSet2.xlsx,ImageAnsSet2.xlsx,Pictures/F11A.jpg,,,0,2,2,1,0,3,3,4,,,,,,,,,,,,,,,,,,,129.81356319800034,None,,,,,,,,,,,,,,,,,,Nat,F,20,2022_Mar_25_1319,Prototype,2021.2.3,59.985388519032426,
ImageShowSet2.xlsx,ImageAnsSet2.xlsx,Pictures/F9A.jpg,,,0,2,2,1,0,4,4,0,,,,,,,,,,,,,,,,,,,131.31065076200048,None,,,,,,,,,,,,,,,,,,Nat,F,20,2022_Mar_25_1319,Prototype,2021.2.3,59.985388519032426,
ImageShowSet2.xlsx,ImageAnsSet2.xlsx,Pictures/F10M.jpg,,,0,2,2,1,0,5,5,2,,,,,,,,,,,,,,,,,,,132.79888000000028,None,,,,,,,,,,,,,,,,,,Nat,F,20,2022_Mar_25_1319,Prototype,2021.2.3,59.985388519032426,
ImageShowSet2.xlsx,ImageAnsSet2.xlsx,,Pictures/F9A.jpg,o,0,2,2,1,,,,,0,0,0,0,,,,,,,,,,,,,,,,,134.17240158700042,None,space,1.1209673409994139,134.17240158700042,None,135.48249370099984,None,136.84001851199992,None,o,1,0.5519820640001853,136.84001851199992,None,,,Nat,F,20,2022_Mar_25_1319,Prototype,2021.2.3,59.985388519032426,
ImageShowSet2.xlsx,ImageAnsSet2.xlsx,,Pictures/M9A.jpg,o,0,2,2,1,,,,,0,1,1,1,,,,,,,,,,,,,,,,,,,,,,,137.55445635100023,None,138.92796636599996,None,o,1,0.3840315780007586,138.92796636599996,None,,,Nat,F,20,2022_Mar_25_1319,Prototype,2021.2.3,59.985388519032426,
ImageShowSet2.xlsx,ImageAnsSet2.xlsx,,Pictures/F10M.jpg,o,0,2,2,1,,,,,0,2,2,2,,,,,,,,,,,,,,,,,,,,,,,139.47213376800028,None,140.85465262300022,None,o,1,0.46823350900012883,140.85465262300022,None,,,Nat,F,20,2022_Mar_25_1319,Prototype,2021.2.3,59.985388519032426,
ImageShowSet2.xlsx,ImageAnsSet2.xlsx,,Pictures/M11A.jpg,o,0,2,2,1,,,,,0,3,3,5,,,,,,,,,,,,,,,,,,,,,,,141.4890197120003,None,142.87121975599985,None,n,0,0.2306376860005912,142.87121975599985,None,,,Nat,F,20,2022_Mar_25_1319,Prototype,2021.2.3,59.985388519032426,
ImageShowSet2.xlsx,ImageAnsSet2.xlsx,,Pictures/M10M.jpg,o,0,2,2,1,,,,,0,4,4,3,,,,,,,,,,,,,,,,,,,,,,,143.25291746699986,None,144.63803544999973,None,o,1,0.46675735200005875,144.63803544999973,None,,,Nat,F,20,2022_Mar_25_1319,Prototype,2021.2.3,59.985388519032426,
ImageShowSet2.xlsx,ImageAnsSet2.xlsx,,Pictures/F11A.jpg,o,0,2,2,1,,,,,0,5,5,4,,,,,,,,,,,,,,,,,,,,,,,145.28943785200045,None,146.65498702199966,None,n,0,1.0827799170001526,146.65498702199966,None,,,Nat,F,20,2022_Mar_25_1319,Prototype,2021.2.3,59.985388519032426,
ImageShowSet2.xlsx,ImageAnsSet2.xlsx,,Pictures/F9M.jpg,n,0,2,2,1,,,,,0,6,6,6,,,,,,,,,,,,,,,,,,,,,,,147.90235682100047,None,149.28818562000015,None,n,1,0.3326042499993491,149.28818562000015,None,,,Nat,F,20,2022_Mar_25_1319,Prototype,2021.2.3,59.985388519032426,
ImageShowSet2.xlsx,ImageAnsSet2.xlsx,,Pictures/F10A.jpg,n,0,2,2,1,,,,,0,7,7,8,,,,,,,,,,,,,,,,,,,,,,,149.77896571499969,None,151.15472511999997,None,n,1,0.3110894179999377,151.15472511999997,None,,,Nat,F,20,2022_Mar_25_1319,Prototype,2021.2.3,59.985388519032426,
ImageShowSet2.xlsx,ImageAnsSet2.xlsx,,Pictures/M10A.jpg,n,0,2,2,1,,,,,0,8,8,9,,,,,,,,,,,,,,,,,,,,,,,151.62327178600026,None,153.00449106700034,None,o,0,2.009159379000266,153.00449106700034,None,,,Nat,F,20,2022_Mar_25_1319,Prototype,2021.2.3,59.985388519032426,
ImageShowSet2.xlsx,ImageAnsSet2.xlsx,,Pictures/M9M.jpg,n,0,2,2,1,,,,,0,9,9,7,,,,,,,,,,,,,,,,,,,,,,,155.17668192499968,None,156.55463037299978,None,n,1,0.26000668100004987,156.55463037299978,None,,,Nat,F,20,2022_Mar_25_1319,Prototype,2021.2.3,59.985388519032426,
ImageShowSet2.xlsx,ImageAnsSet2.xlsx,,Pictures/M11M.jpg,n,0,2,2,1,,,,,0,10,10,11,,,,,,,,,,,,,,,,,,,,,,,156.96899727900018,None,158.35478483400038,None,o,0,0.3308571079996909,158.35478483400038,None,,,Nat,F,20,2022_Mar_25_1319,Prototype,2021.2.3,59.985388519032426,
ImageShowSet2.xlsx,ImageAnsSet2.xlsx,,Pictures/F11M.jpg,n,0,2,2,1,,,,,0,11,11,10,,,,,,,,,,,,,,,,,,,,,,,158.83095631299966,None,160.2213695700002,None,o,0,1.4472439000001032,160.2213695700002,None,,,Nat,F,20,2022_Mar_25_1319,Prototype,2021.2.3,59.985388519032426,
ImageShowSet2.xlsx,ImageAnsSet2.xlsx,,,,0,2,2,1,,,,,,,,,,,,,,,,,,,,,,,,,,,,,,,,,,,,,,,,,,Nat,F,20,2022_Mar_25_1319,Prototype,2021.2.3,59.985388519032426,
ImageShowSet4.xlsx,ImageAnsSet4.xlsx,Pictures/M25A.jpg,,,0,3,3,3,0,0,0,1,,,,,,,,,,,161.68920767500003,162.70421734400043,162.67122347900022,163.68729013600023,163.67115975999968,164.6873497329998,164.67108213499978,None,165.8447664969999,None,,,,,,,,,,,,,,,,,,Nat,F,20,2022_Mar_25_1319,Prototype,2021.2.3,59.985388519032426,
ImageShowSet4.xlsx,ImageAnsSet4.xlsx,Pictures/M27A.jpg,,,0,3,3,3,0,1,1,5,,,,,,,,,,,,,,,,,,,167.332821213,None,,,,,,,,,,,,,,,,,,Nat,F,20,2022_Mar_25_1319,Prototype,2021.2.3,59.985388519032426,
ImageShowSet4.xlsx,ImageAnsSet4.xlsx,Pictures/M26M.jpg,,,0,3,3,3,0,2,2,3,,,,,,,,,,,,,,,,,,,168.83750277800027,None,,,,,,,,,,,,,,,,,,Nat,F,20,2022_Mar_25_1319,Prototype,2021.2.3,59.985388519032426,
ImageShowSet4.xlsx,ImageAnsSet4.xlsx,Pictures/F26M.jpg,,,0,3,3,3,0,3,3,2,,,,,,,,,,,,,,,,,,,170.35238458500044,None,,,,,,,,,,,,,,,,,,Nat,F,20,2022_Mar_25_1319,Prototype,2021.2.3,59.985388519032426,
ImageShowSet4.xlsx,ImageAnsSet4.xlsx,Pictures/F27A.jpg,,,0,3,3,3,0,4,4,4,,,,,,,,,,,,,,,,,,,171.87384192199988,None,,,,,,,,,,,,,,,,,,Nat,F,20,2022_Mar_25_1319,Prototype,2021.2.3,59.985388519032426,
ImageShowSet4.xlsx,ImageAnsSet4.xlsx,Pictures/F25A.jpg,,,0,3,3,3,0,5,5,0,,,,,,,,,,,,,,,,,,,173.37029554699984,None,,,,,,,,,,,,,,,,,,Nat,F,20,2022_Mar_25_1319,Prototype,2021.2.3,59.985388519032426,
ImageShowSet4.xlsx,ImageAnsSet4.xlsx,,Pictures/M25M.jpg,n,0,3,3,3,,,,,0,0,0,7,,,,,,,,,,,,,,,,,174.70643252399987,None,space,1.029908350000369,174.70643252399987,None,175.91632780600048,None,177.2735979680001,None,o,0,1.0973903289996088,177.2735979680001,None,,,Nat,F,20,2022_Mar_25_1319,Prototype,2021.2.3,59.985388519032426,
ImageShowSet4.xlsx,ImageAnsSet4.xlsx,,Pictures/F25A.jpg,o,0,3,3,3,,,,,0,1,1,0,,,,,,,,,,,,,,,,,,,,,,,178.56206935000046,None,179.92184005800027,None,o,1,0.4621579999993628,179.92184005800027,None,,,Nat,F,20,2022_Mar_25_1319,Prototype,2021.2.3,59.985388519032426,
ImageShowSet4.xlsx,ImageAnsSet4.xlsx,,Pictures/M26A.jpg,n,0,3,3,3,,,,,0,2,2,9,,,,,,,,,,,,,,,,,,,,,,,180.54652175499996,None,181.92087873899982,None,n,1,0.4130986650006889,181.92087873899982,None,,,Nat,F,20,2022_Mar_25_1319,Prototype,2021.2.3,59.985388519032426,
ImageShowSet4.xlsx,ImageAnsSet4.xlsx,,Pictures/M25A.jpg,o,0,3,3,3,,,,,0,3,3,1,,,,,,,,,,,,,,,,,,,,,,,182.49799931000052,None,183.87101134299974,None,n,0,2.389951025999835,183.87101134299974,None,,,Nat,F,20,2022_Mar_25_1319,Prototype,2021.2.3,59.985388519032426,
ImageShowSet4.xlsx,ImageAnsSet4.xlsx,,Pictures/F26A.jpg,n,0,3,3,3,,,,,0,4,4,8,,,,,,,,,,,,,,,,,,,,,,,186.4550350469999,None,187.8044715240003,None,o,0,0.4963534839998829,187.8044715240003,None,,,Nat,F,20,2022_Mar_25_1319,Prototype,2021.2.3,59.985388519032426,
ImageShowSet4.xlsx,ImageAnsSet4.xlsx,,Pictures/M27M.jpg,n,0,3,3,3,,,,,0,5,5,11,,,,,,,,,,,,,,,,,,,,,,,188.45537851100016,None,189.83802915399974,None,n,1,0.2967270160006592,189.83802915399974,None,,,Nat,F,20,2022_Mar_25_1319,Prototype,2021.2.3,59.985388519032426,
ImageShowSet4.xlsx,ImageAnsSet4.xlsx,,Pictures/M27A.jpg,o,0,3,3,3,,,,,0,6,6,5,,,,,,,,,,,,,,,,,,,,,,,190.2867894560004,None,191.6719373830001,None,o,1,0.36386871000013343,191.6719373830001,None,,,Nat,F,20,2022_Mar_25_1319,Prototype,2021.2.3,59.985388519032426,
ImageShowSet4.xlsx,ImageAnsSet4.xlsx,,Pictures/F25M.jpg,n,0,3,3,3,,,,,0,7,7,6,,,,,,,,,,,,,,,,,,,,,,,192.1820699609998,None,193.57105628299996,None,n,1,0.38457912800004124,193.57105628299996,None,,,Nat,F,20,2022_Mar_25_1319,Prototype,2021.2.3,59.985388519032426,
ImageShowSet4.xlsx,ImageAnsSet4.xlsx,,Pictures/M26M.jpg,o,0,3,3,3,,,,,0,8,8,3,,,,,,,,,,,,,,,,,,,,,,,194.12410307699975,None,195.48787945000004,None,o,1,0.338892757999929,195.48787945000004,None,,,Nat,F,20,2022_Mar_25_1319,Prototype,2021.2.3,59.985388519032426,
ImageShowSet4.xlsx,ImageAnsSet4.xlsx,,Pictures/F27M.jpg,n,0,3,3,3,,,,,0,9,9,10,,,,,,,,,,,,,,,,,,,,,,,195.98119630499968,None,197.37081995799963,None,n,1,0.34981942900049035,197.37081995799963,None,,,Nat,F,20,2022_Mar_25_1319,Prototype,2021.2.3,59.985388519032426,
ImageShowSet4.xlsx,ImageAnsSet4.xlsx,,Pictures/F27A.jpg,o,0,3,3,3,,,,,0,10,10,4,,,,,,,,,,,,,,,,,,,,,,,197.91256918,None,199.27109816400025,None,o,1,0.28053974299928086,199.27109816400025,None,,,Nat,F,20,2022_Mar_25_1319,Prototype,2021.2.3,59.985388519032426,
ImageShowSet4.xlsx,ImageAnsSet4.xlsx,,Pictures/F26M.jpg,o,0,3,3,3,,,,,0,11,11,2,,,,,,,,,,,,,,,,,,,,,,,199.7126292590001,None,201.08741816099973,None,n,0,0.9562307349997354,201.08741816099973,None,,,Nat,F,20,2022_Mar_25_1319,Prototype,2021.2.3,59.985388519032426,
ImageShowSet4.xlsx,ImageAnsSet4.xlsx,,,,0,3,3,3,,,,,,,,,,,,,,,,,,,,,,,,,,,,,,,,,,,,,,,,,,Nat,F,20,2022_Mar_25_1319,Prototype,2021.2.3,59.985388519032426,
ImageShowSet6.xlsx,ImageAnsSet6.xlsx,Pictures/M23A.jpg,,,0,4,4,5,0,0,0,3,,,,,,,,,,,202.07109584299997,203.08697035000023,203.05410372500046,204.0701960440001,204.0540383939997,205.07047616399996,205.05363372400006,None,206.21274709499994,None,,,,,,,,,,,,,,,,,,Nat,F,20,2022_Mar_25_1319,Prototype,2021.2.3,59.985388519032426,
ImageShowSet6.xlsx,ImageAnsSet6.xlsx,Pictures/F23A.jpg,,,0,4,4,5,0,1,1,2,,,,,,,,,,,,,,,,,,,207.74828425400028,None,,,,,,,,,,,,,,,,,,Nat,F,20,2022_Mar_25_1319,Prototype,2021.2.3,59.985388519032426,
ImageShowSet6.xlsx,ImageAnsSet6.xlsx,Pictures/F22M.jpg,,,0,4,4,5,0,2,2,0,,,,,,,,,,,,,,,,,,,209.2262050850004,None,,,,,,,,,,,,,,,,,,Nat,F,20,2022_Mar_25_1319,Prototype,2021.2.3,59.985388519032426,
ImageShowSet6.xlsx,ImageAnsSet6.xlsx,Pictures/F24M.jpg,,,0,4,4,5,0,3,3,4,,,,,,,,,,,,,,,,,,,210.70906016200024,None,,,,,,,,,,,,,,,,,,Nat,F,20,2022_Mar_25_1319,Prototype,2021.2.3,59.985388519032426,
ImageShowSet6.xlsx,ImageAnsSet6.xlsx,Pictures/M22M.jpg,,,0,4,4,5,0,4,4,1,,,,,,,,,,,,,,,,,,,212.2327429120005,None,,,,,,,,,,,,,,,,,,Nat,F,20,2022_Mar_25_1319,Prototype,2021.2.3,59.985388519032426,
ImageShowSet6.xlsx,ImageAnsSet6.xlsx,Pictures/M24M.jpg,,,0,4,4,5,0,5,5,5,,,,,,,,,,,,,,,,,,,213.7053956560003,None,,,,,,,,,,,,,,,,,,Nat,F,20,2022_Mar_25_1319,Prototype,2021.2.3,59.985388519032426,
ImageShowSet6.xlsx,ImageAnsSet6.xlsx,,Pictures/F23A.jpg,o,0,4,4,5,,,,,0,0,0,2,,,,,,,,,,,,,,,,,215.0893051009998,None,space,0.9361026810001931,215.0893051009998,None,216.21460771800048,None,217.55661760699968,None,o,1,1.1124145599997064,217.55661760699968,None,,,Nat,F,20,2022_Mar_25_1319,Prototype,2021.2.3,59.985388519032426,
ImageShowSet6.xlsx,ImageAnsSet6.xlsx,,Pictures/M24A.jpg,n,0,4,4,5,,,,,0,1,1,11,,,,,,,,,,,,,,,,,,,,,,,218.81962549699983,None,220.20391879399995,None,o,0,0.5140099869995538,220.20391879399995,None,,,Nat,F,20,2022_Mar_25_1319,Prototype,2021.2.3,59.985388519032426,
ImageShowSet6.xlsx,ImageAnsSet6.xlsx,,Pictures/M23A.jpg,o,0,4,4,5,,,,,0,2,2,3,,,,,,,,,,,,,,,,,,,,,,,220.8755623320003,None,222.25427197000045,None,o,1,0.5415859790000468,222.25427197000045,None,,,Nat,F,20,2022_Mar_25_1319,Prototype,2021.2.3,59.985388519032426,
ImageShowSet6.xlsx,ImageAnsSet6.xlsx,,Pictures/F22M.jpg,o,0,4,4,5,,,,,0,3,3,0,,,,,,,,,,,,,,,,,,,,,,,222.9524551860004,None,224.33755531299994,None,o,1,0.5973794459996498,224.33755531299994,None,,,Nat,F,20,2022_Mar_25_1319,Prototype,2021.2.3,59.985388519032426,
ImageShowSet6.xlsx,ImageAnsSet6.xlsx,,Pictures/M23M.jpg,n,0,4,4,5,,,,,0,4,4,9,,,,,,,,,,,,,,,,,,,,,,,225.08802564300004,None,226.47086310400027,None,n,1,0.33636882700011483,226.47086310400027,None,,,Nat,F,20,2022_Mar_25_1319,Prototype,2021.2.3,59.985388519032426,
ImageShowSet6.xlsx,ImageAnsSet6.xlsx,,Pictures/F22A.jpg,n,0,4,4,5,,,,,0,5,5,6,,,,,,,,,,,,,,,,,,,,,,,226.99612651999996,None,228.35421449800015,None,n,1,0.4077140360004705,228.35421449800015,None,,,Nat,F,20,2022_Mar_25_1319,Prototype,2021.2.3,59.985388519032426,
ImageShowSet6.xlsx,ImageAnsSet6.xlsx,,Pictures/F24M.jpg,o,0,4,4,5,,,,,0,6,6,4,,,,,,,,,,,,,,,,,,,,,,,228.92489115300032,None,230.28793073900033,None,o,1,0.33385869700032345,230.28793073900033,None,,,Nat,F,20,2022_Mar_25_1319,Prototype,2021.2.3,59.985388519032426,
ImageShowSet6.xlsx,ImageAnsSet6.xlsx,,Pictures/M22M.jpg,o,0,4,4,5,,,,,0,7,7,1,,,,,,,,,,,,,,,,,,,,,,,230.79392495499997,None,232.1541625810005,None,o,1,0.4227371019997008,232.1541625810005,None,,,Nat,F,20,2022_Mar_25_1319,Prototype,2021.2.3,59.985388519032426,
ImageShowSet6.xlsx,ImageAnsSet6.xlsx,,Pictures/F23M.jpg,n,0,4,4,5,,,,,0,8,8,8,,,,,,,,,,,,,,,,,,,,,,,232.75125694300004,None,234.10723415200027,None,n,1,0.38561619199936104,234.10723415200027,None,,,Nat,F,20,2022_Mar_25_1319,Prototype,2021.2.3,59.985388519032426,
ImageShowSet6.xlsx,ImageAnsSet6.xlsx,,Pictures/M22A.jpg,n,0,4,4,5,,,,,0,9,9,7,,,,,,,,,,,,,,,,,,,,,,,234.65562680400035,None,236.02538217500023,None,n,1,0.35435900499942363,236.02538217500023,None,,,Nat,F,20,2022_Mar_25_1319,Prototype,2021.2.3,59.985388519032426,
ImageShowSet6.xlsx,ImageAnsSet6.xlsx,,Pictures/M24M.jpg,o,0,4,4,5,,,,,0,10,10,5,,,,,,,,,,,,,,,,,,,,,,,236.5429899110004,None,237.90539302700017,None,o,1,0.31442976299967995,237.90539302700017,None,,,Nat,F,20,2022_Mar_25_1319,Prototype,2021.2.3,59.985388519032426,
ImageShowSet6.xlsx,ImageAnsSet6.xlsx,,Pictures/F24A.jpg,n,0,4,4,5,,,,,0,11,11,10,,,,,,,,,,,,,,,,,,,,,,,238.40710054099964,None,239.75466864200007,None,o,0,1.083905913000308,239.75466864200007,None,,,Nat,F,20,2022_Mar_25_1319,Prototype,2021.2.3,59.985388519032426,
ImageShowSet6.xlsx,ImageAnsSet6.xlsx,,,,0,4,4,5,,,,,,,,,,,,,,,,,,,,,,,,,,,,,,,,,,,,,,,,,,Nat,F,20,2022_Mar_25_1319,Prototype,2021.2.3,59.985388519032426,
ImageShowSet3.xlsx,ImageAnsSet3.xlsx,Pictures/M18M.jpg,,,0,5,5,2,0,0,0,3,,,,,,,,,,,240.8712636700002,241.88649369300038,241.8539561130001,242.87048109900024,242.85385190800025,243.87050106900006,243.85430356100005,None,245.01009419900038,None,,,,,,,,,,,,,,,,,,Nat,F,20,2022_Mar_25_1319,Prototype,2021.2.3,59.985388519032426,
ImageShowSet3.xlsx,ImageAnsSet3.xlsx,Pictures/M17A.jpg,,,0,5,5,2,0,1,1,1,,,,,,,,,,,,,,,,,,,246.5506481780003,None,,,,,,,,,,,,,,,,,,Nat,F,20,2022_Mar_25_1319,Prototype,2021.2.3,59.985388519032426,
ImageShowSet3.xlsx,ImageAnsSet3.xlsx,Pictures/M19A.jpg,,,0,5,5,2,0,2,2,5,,,,,,,,,,,,,,,,,,,248.00978777100045,None,,,,,,,,,,,,,,,,,,Nat,F,20,2022_Mar_25_1319,Prototype,2021.2.3,59.985388519032426,
ImageShowSet3.xlsx,ImageAnsSet3.xlsx,Pictures/F19A.jpg,,,0,5,5,2,0,3,3,4,,,,,,,,,,,,,,,,,,,249.56384762900052,None,,,,,,,,,,,,,,,,,,Nat,F,20,2022_Mar_25_1319,Prototype,2021.2.3,59.985388519032426,
ImageShowSet3.xlsx,ImageAnsSet3.xlsx,Pictures/F17A.jpg,,,0,5,5,2,0,4,4,0,,,,,,,,,,,,,,,,,,,251.04328170999997,None,,,,,,,,,,,,,,,,,,Nat,F,20,2022_Mar_25_1319,Prototype,2021.2.3,59.985388519032426,
ImageShowSet3.xlsx,ImageAnsSet3.xlsx,Pictures/F18M.jpg,,,0,5,5,2,0,5,5,2,,,,,,,,,,,,,,,,,,,252.53159555900038,None,,,,,,,,,,,,,,,,,,Nat,F,20,2022_Mar_25_1319,Prototype,2021.2.3,59.985388519032426,
ImageShowSet3.xlsx,ImageAnsSet3.xlsx,,Pictures/M19A.jpg,o,0,5,5,2,,,,,0,0,0,5,,,,,,,,,,,,,,,,,253.87348792099965,None,space,1.14875367500008,253.87348792099965,None,255.20766454499972,None,256.5728705370002,None,o,1,0.2819208050004818,256.5728705370002,None,,,Nat,F,20,2022_Mar_25_1319,Prototype,2021.2.3,59.985388519032426,
ImageShowSet3.xlsx,ImageAnsSet3.xlsx,,Pictures/F19M.jpg,n,0,5,5,2,,,,,0,1,1,10,,,,,,,,,,,,,,,,,,,,,,,257.0337722869999,None,258.4038357299996,None,o,0,0.4900488069997664,258.4038357299996,None,,,Nat,F,20,2022_Mar_25_1319,Prototype,2021.2.3,59.985388519032426,
ImageShowSet3.xlsx,ImageAnsSet3.xlsx,,Pictures/M19M.jpg,n,0,5,5,2,,,,,0,2,2,11,,,,,,,,,,,,,,,,,,,,,,,259.0672096260005,None,260.43696567500047,None,o,0,0.4607852660001299,260.43696567500047,None,,,Nat,F,20,2022_Mar_25_1319,Prototype,2021.2.3,59.985388519032426,
ImageShowSet3.xlsx,ImageAnsSet3.xlsx,,Pictures/M17A.jpg,o,0,5,5,2,,,,,0,3,3,1,,,,,,,,,,,,,,,,,,,,,,,261.0539659220003,None,262.43714640300004,None,n,0,0.3745710600005623,262.43714640300004,None,,,Nat,F,20,2022_Mar_25_1319,Prototype,2021.2.3,59.985388519032426,
ImageShowSet3.xlsx,ImageAnsSet3.xlsx,,Pictures/F19A.jpg,o,0,5,5,2,,,,,0,4,4,4,,,,,,,,,,,,,,,,,,,,,,,263.0096208289997,None,264.3540180790005,None,o,1,0.3745616460000747,264.3540180790005,None,,,Nat,F,20,2022_Mar_25_1319,Prototype,2021.2.3,59.985388519032426,
ImageShowSet3.xlsx,ImageAnsSet3.xlsx,,Pictures/M17M.jpg,n,0,5,5,2,,,,,0,5,5,7,,,,,,,,,,,,,,,,,,,,,,,264.89368399900013,None,266.25828495299993,None,o,0,0.49946001500029524,266.25828495299993,None,,,Nat,F,20,2022_Mar_25_1319,Prototype,2021.2.3,59.985388519032426,
ImageShowSet3.xlsx,ImageAnsSet3.xlsx,,Pictures/F17M.jpg,n,0,5,5,2,,,,,0,6,6,6,,,,,,,,,,,,,,,,,,,,,,,266.9718443370002,None,268.303759292,None,n,1,0.2330202389994156,268.303759292,None,,,Nat,F,20,2022_Mar_25_1319,Prototype,2021.2.3,59.985388519032426,
ImageShowSet3.xlsx,ImageAnsSet3.xlsx,,Pictures/F17A.jpg,o,0,5,5,2,,,,,0,7,7,0,,,,,,,,,,,,,,,,,,,,,,,268.71565110400024,None,270.0581490149998,None,o,1,0.2665001859995755,270.0581490149998,None,,,Nat,F,20,2022_Mar_25_1319,Prototype,2021.2.3,59.985388519032426,
ImageShowSet3.xlsx,ImageAnsSet3.xlsx,,Pictures/M18A.jpg,n,0,5,5,2,,,,,0,8,8,9,,,,,,,,,,,,,,,,,,,,,,,270.48845423700004,None,271.85606888300026,None,n,1,0.3064256410007147,271.85606888300026,None,,,Nat,F,20,2022_Mar_25_1319,Prototype,2021.2.3,59.985388519032426,
ImageShowSet3.xlsx,ImageAnsSet3.xlsx,,Pictures/F18A.jpg,n,0,5,5,2,,,,,0,9,9,8,,,,,,,,,,,,,,,,,,,,,,,272.3614297430004,None,273.7036868820005,None,o,0,0.326904814000045,273.7036868820005,None,,,Nat,F,20,2022_Mar_25_1319,Prototype,2021.2.3,59.985388519032426,
ImageShowSet3.xlsx,ImageAnsSet3.xlsx,,Pictures/M18M.jpg,o,0,5,5,2,,,,,0,10,10,3,,,,,,,,,,,,,,,,,,,,,,,274.19451975300035,None,275.55405629899997,None,o,1,0.32757747800042125,275.55405629899997,None,,,Nat,F,20,2022_Mar_25_1319,Prototype,2021.2.3,59.985388519032426,
ImageShowSet3.xlsx,ImageAnsSet3.xlsx,,Pictures/F18M.jpg,o,0,5,5,2,,,,,0,11,11,2,,,,,,,,,,,,,,,,,,,,,,,276.05003403000046,None,277.41096257499976,None,o,1,0.3707689630000459,277.41096257499976,None,,,Nat,F,20,2022_Mar_25_1319,Prototype,2021.2.3,59.985388519032426,
ImageShowSet3.xlsx,ImageAnsSet3.xlsx,,,,0,5,5,2,,,,,,,,,,,,,,,,,,,,,,,,,,,,,,,,,,,,,,,,,,Nat,F,20,2022_Mar_25_1319,Prototype,2021.2.3,59.985388519032426,
,,,,,,,,,,,,,,,,,,,,,,,,,,,,,,,,,,,,,,,,,,,,,,,,277.8063161279997,None,,,,,,,,
